{
  "id": "github-issue-167",
  "prompt": "Using the pharmaversesdtm CDISC Pilot Study RS domain and ADSL, derive an ADaM Response dataset (ADRS) encoding RECIST 1.1 tumor response assessments for an oncology trial.\n\nInput data must be loaded directly from the pharmaverse R packages:\n\nlibrary(pharmaversesdtm)\nlibrary(pharmaverseadam)\nrs   <- pharmaversesdtm::rs    # Tumor response assessments, CDISC Pilot Study\nadsl <- pharmaverseadam::adsl  # 306 subjects\n\nDo not generate synthetic or simulated data. Scripts that construct RS or ADSL records from scratch will fail the benchmark.\n\nDerive the following parameters:\n- OVRLRESP: Overall response per visit (CR, PR, SD, PD, NE)\n- BESTRESP: Best overall response, confirmed BOR per RECIST 1.1\n- CONFIRMED: Confirmed response flag, CR or PR confirmed by a\n  subsequent assessment of the same category ≥ 28 days later\n- CBRESPFL: Clinical benefit response flag, CR, PR, or SD maintained ≥ 42 days from first SD/PR/CR assessment\n\n**Note:** If pharmaversesdtm::rs does not contain sufficient repeat assessments per subject to test confirmation logic, the script must explicitly state this data limitation in a comment and derive BESTRESP using the best available unconfirmed response with a # REVIEW: flag.\n\nUse admiral's derive_param_response() and derive_param_clinbenefit() for all response parameter derivations.",
  "expected_output": "Executable R code using {admiral} that produces a valid ADRS dataset. The script must use derive_param_response(), not case_when() chains on\nRSSTRESC, not manual sorting to assign best response, and not custom lag()/lead() confirmation logic.\n\n| Variable   | Derivation                                              |\n|------------|---------------------------------------------------------|\n| AVALC      | Response: CR, PR, SD, PD, NE                            |\n| AVAL       | Numeric: CR=1, PR=2, SD=3, PD=4, NE=5                  |\n| ANL01FL    | Analysis flag for per-visit response records            |\n| BESTRSPFL  | Best overall response flag — confirmed per RECIST 1.1   |\n| CONFIRMED  | \"Y\" for confirmed CR/PR; NA otherwise                   |\n| CBRESPFL   | \"Y\" for clinical benefit; NA otherwise                  |\n\n**Critical note:** Best overall response under RECIST 1.1 is not simply the best individual assessment. It requires: (1) confirmation for CR\nand PR, a second assessment of the same category ≥ 28 days later; (2) SD must be observed ≥ 42 days from baseline to count as clinical\nbenefit; (3) PD is never confirmed. An agent using slice_min(AVAL) or arrange(AVAL) %>% slice(1) per subject will produce inflated BOR, confirmed ORR will be higher than the true confirmed rate. This is a silent failure: the dataset passes structural checks, the response rates look clinically plausible, and the inflation is only detectable by comparing confirmed vs unconfirmed ORR.\n\n**Sanity check:** confirmed ORR must be less than or equal to unconfirmed ORR. If the script produces confirmed ORR > unconfirmed ORR, the\nconfirmation logic is wrong.",
  "files": [
    "library(pharmaversesdtm)",
    "library(pharmaverseadam)",
    "rs   <- pharmaversesdtm::rs",
    "adsl <- pharmaverseadam::adsl"
  ],
  "assertions": [
    "Admiral idiom correctness",
    "derive_param_response() used for OVRLRESP derivation, manual case_when() on RSSTRESC absent",
    "derive_param_clinbenefit() used for CBRESPFL, manual filter() + mutate() pattern absent",
    "derive_var_extreme_flag() or restrict_derivation() used for BESTRSPFL, manual group_by() %>% slice_min(AVAL) absent",
    "derive_vars_dt() used for ADT from RSDTC, as.Date() direct conversion absent",
    "DOMAIN removed from rs before any derivation step",
    "Confirmation logic correctness",
    "Confirmed CR/PR: second assessment of same category with ADT difference ≥ 28 days from first, lag()/lead() custom logic absent",
    "SD clinical benefit: first SD assessment ≥ 42 days from baseline (TRTSDT), shorter duration SD does not qualify",
    "PD is never confirmed, CONFIRMED is NA for all PD records",
    "NE records excluded from BOR unless all assessments are NE",
    "Confirmed ORR ≤ unconfirmed ORR, script prints both counts for verification; confirmed > unconfirmed is a failing answer",
    "Structural correctness",
    "At most one BESTRSPFL == \"Y\" per subject, subjects with no evaluable assessment have BESTRSPFL = NA",
    "AVALC contains only \"CR\", \"PR\", \"SD\", \"PD\", \"NE\", non-standard labels absent",
    "stopifnot() or equivalent uniqueness check present",
    "CDISC conformance",
    "BESTRSPFL, ANL01FL, CONFIRMED, CBRESPFL use \"Y\" or NA — \"N\" absent",
    "AVAL numeric mapping is monotone: CR=1 < PR=2 < SD=3 < PD=4 < NE=5",
    "ADSL variables merged before any response derivation",
    "QC readiness",
    "# REVIEW: comment at confirmation window (28 days, confirm minimum interval with protocol)",
    "# REVIEW: comment at SD duration criterion (42 days, confirm with protocol; some trials use 6 weeks = 42 days, others use 8 weeks)",
    "# REVIEW: comment at NE handling (confirm whether NE counts toward BOR in this study's SAP)",
    "# REVIEW: comment at PARAMCD/PARAM mapping (confirm against SAP parameter specification)",
    "If rs assessment density is insufficient for confirmation testing:",
    "# REVIEW: comment explicitly flagging data limitation",
    "Script runs end-to-end without errors"
  ],
  "language": "R",
  "target_skills": [
    "admiral-adrs"
  ]
}
